{
  "resourceType": "Bundle",
  "id": "cd4be65b-32b9-4071-99b6-0c2e7738c915",
  "type": "collection",
  "entry": [ {
    "fullUrl": "87e46f5a-a72e-4ca5-a322-26ef31fb4496",
    "resource": {
      "resourceType": "Observation",
      "id": "87e46f5a-a72e-4ca5-a322-26ef31fb4496",
      "code": {
        "coding": [ {
          "system": "2.16.840.1.113883.3.1829.11.4.3.12",
          "code": "PH_DischargeDisposition_HL7_2x"
        } ]
      },
      "subject": {
        "reference": "Patient/af3aaf7a-14a3-4887-8c07-b7ad2d68065d"
      }
    }
  }, {
    "fullUrl": "57b2f026-d791-49b9-ac44-14a203c590dd",
    "resource": {
      "resourceType": "Encounter",
      "id": "57b2f026-d791-49b9-ac44-14a203c590dd",
      "reasonReference": [ {
        "reference": "Observation/87e46f5a-a72e-4ca5-a322-26ef31fb4496"
      } ]
    }
  }, {
    "fullUrl": "fd7305e5-eba6-4ae8-8a1f-fc89bc8df5d6",
    "resource": {
      "resourceType": "Condition",
      "id": "fd7305e5-eba6-4ae8-8a1f-fc89bc8df5d6",
      "code": {
        "coding": [ {
          "system": "2.16.840.1.113883.6.90",
          "code": "Z11.3",
          "display": "Encounter for screening for infections with a predominantly sexual mode of transmission"
        } ]
      },
      "subject": {
        "reference": "Patient/af3aaf7a-14a3-4887-8c07-b7ad2d68065d"
      }
    }
  }, {
    "fullUrl": "2b0e106b-5068-4704-987b-1f7a02dcd8fa",
    "resource": {
      "resourceType": "Encounter",
      "id": "2b0e106b-5068-4704-987b-1f7a02dcd8fa",
      "reasonReference": [ {
        "reference": "Condition/fd7305e5-eba6-4ae8-8a1f-fc89bc8df5d6"
      } ]
    }
  }, {
    "fullUrl": "f11b4c9a-bd26-42a1-9238-5736ce7d0b49",
    "resource": {
      "resourceType": "ServiceRequest",
      "id": "f11b4c9a-bd26-42a1-9238-5736ce7d0b49",
      "code": {
        "coding": [ {
          "system": "2.16.840.1.113883.6.1",
          "code": "57021-8",
          "display": "CBC W Auto Differential panel in Blood"
        } ]
      },
      "subject": {
        "reference": "Patient/af3aaf7a-14a3-4887-8c07-b7ad2d68065d"
      }
    }
  }, {
    "fullUrl": "1a873fff-cbde-43c8-9709-298cef258b3f",
    "resource": {
      "resourceType": "ServiceRequest",
      "id": "1a873fff-cbde-43c8-9709-298cef258b3f",
      "code": {
        "coding": [ {
          "system": "2.16.840.1.113883.6.1",
          "code": "45074-2",
          "display": "Chlamydia trachomatis+Neisseria gonorrhoeae rRNA [Presence] in Urine by DNA probe"
        } ]
      },
      "subject": {
        "reference": "Patient/af3aaf7a-14a3-4887-8c07-b7ad2d68065d"
      }
    }
  }, {
    "fullUrl": "452fd0cf-ea28-47f9-b641-92b6ba5eee04",
    "resource": {
      "resourceType": "Observation",
      "id": "452fd0cf-ea28-47f9-b641-92b6ba5eee04",
      "code": {
        "coding": [ {
          "system": "2.16.840.1.113883.6.96",
          "code": "364703007",
          "display": "Employment detail"
        } ]
      },
      "subject": {
        "reference": "Patient/af3aaf7a-14a3-4887-8c07-b7ad2d68065d"
      }
    }
  }, {
    "fullUrl": "6733d436-174a-4ee2-9ed5-0794e119e373",
    "resource": {
      "resourceType": "Observation",
      "id": "6733d436-174a-4ee2-9ed5-0794e119e373",
      "subject": {
        "reference": "Patient/af3aaf7a-14a3-4887-8c07-b7ad2d68065d"
      },
      "valueCodeableConcept": {
        "coding": [ {
          "system": "2.16.840.1.113883.6.96",
          "code": "61462000",
          "display": "Malaria (disorder)"
        } ]
      }
    }
  }, {
    "fullUrl": "ec0386ff-42fd-4ccb-a2d8-d372fe4e0b7b",
    "resource": {
      "resourceType": "Observation",
      "id": "ec0386ff-42fd-4ccb-a2d8-d372fe4e0b7b",
      "subject": {
        "reference": "Patient/af3aaf7a-14a3-4887-8c07-b7ad2d68065d"
      },
      "valueCodeableConcept": {
        "coding": [ {
          "system": "2.16.840.1.113883.6.96",
          "code": "406583002",
          "display": "Invasive Haemophilus influenzae disease (disorder)"
        } ]
      }
    }
  }, {
    "fullUrl": "cd31a4fa-0585-4400-b6f3-2f996825d838",
    "resource": {
      "resourceType": "Observation",
      "id": "cd31a4fa-0585-4400-b6f3-2f996825d838",
      "subject": {
        "reference": "Patient/af3aaf7a-14a3-4887-8c07-b7ad2d68065d"
      },
      "valueCodeableConcept": {
        "coding": [ {
          "system": "2.16.840.1.113883.6.96",
          "code": "404681006",
          "display": "Infection caused by vancomycin resistant Staphylococcus aureus (disorder)"
        } ]
      }
    }
  }, {
    "fullUrl": "830ebf69-4923-47af-a06a-99979845df44",
    "resource": {
      "resourceType": "Observation",
      "id": "830ebf69-4923-47af-a06a-99979845df44",
      "subject": {
        "reference": "Patient/af3aaf7a-14a3-4887-8c07-b7ad2d68065d"
      },
      "valueCodeableConcept": {
        "coding": [ {
          "system": "2.16.840.1.113883.6.96",
          "code": "734351004",
          "display": "Carbapenemase-producing Enterobacteriaceae (organism)"
        } ]
      }
    }
  }, {
    "fullUrl": "e289a796-0229-4c60-913d-0302a289ce4d",
    "resource": {
      "resourceType": "Observation",
      "id": "e289a796-0229-4c60-913d-0302a289ce4d",
      "subject": {
        "reference": "Patient/af3aaf7a-14a3-4887-8c07-b7ad2d68065d"
      },
      "valueCodeableConcept": {
        "coding": [ {
          "system": "2.16.840.1.113883.6.96",
          "code": "14189004",
          "display": "Measles (disorder)"
        } ]
      }
    }
  }, {
    "fullUrl": "aa13b8d0-f7a0-4d4d-9df4-ae5c9a21272b",
    "resource": {
      "resourceType": "Observation",
      "id": "aa13b8d0-f7a0-4d4d-9df4-ae5c9a21272b",
      "subject": {
        "reference": "Patient/af3aaf7a-14a3-4887-8c07-b7ad2d68065d"
      },
      "valueCodeableConcept": {
        "coding": [ {
          "system": "2.16.840.1.113883.6.96",
          "code": "406617004",
          "display": "Invasive Streptococcus pneumoniae disease (disorder)"
        } ]
      }
    }
  }, {
    "fullUrl": "7c5aa228-4a73-4540-a3dc-3ed30ae78f69",
    "resource": {
      "resourceType": "Observation",
      "id": "7c5aa228-4a73-4540-a3dc-3ed30ae78f69",
      "subject": {
        "reference": "Patient/af3aaf7a-14a3-4887-8c07-b7ad2d68065d"
      },
      "valueCodeableConcept": {
        "coding": [ {
          "system": "2.16.840.1.113883.6.96",
          "code": "23511006",
          "display": "Meningococcal infectious disease (disorder)"
        } ]
      }
    }
  }, {
    "fullUrl": "9d4b95d2-9699-4269-a409-5c38be4257ee",
    "resource": {
      "resourceType": "Observation",
      "id": "9d4b95d2-9699-4269-a409-5c38be4257ee",
      "subject": {
        "reference": "Patient/af3aaf7a-14a3-4887-8c07-b7ad2d68065d"
      },
      "valueCodeableConcept": {
        "coding": [ {
          "system": "2.16.840.1.113883.6.96",
          "code": "302231008",
          "display": "Salmonella infection (disorder)"
        } ]
      }
    }
  }, {
    "fullUrl": "5280e4c3-a887-4723-b898-d7b6c8c52866",
    "resource": {
      "resourceType": "Observation",
      "id": "5280e4c3-a887-4723-b898-d7b6c8c52866",
      "subject": {
        "reference": "Patient/af3aaf7a-14a3-4887-8c07-b7ad2d68065d"
      },
      "valueCodeableConcept": {
        "coding": [ {
          "system": "2.16.840.1.113883.6.96",
          "code": "17383000",
          "display": "Toxic effect of carbon monoxide (disorder)"
        } ]
      }
    }
  }, {
    "fullUrl": "4cfb17dc-df0c-4229-a267-3498fa2218fd",
    "resource": {
      "resourceType": "Observation",
      "id": "4cfb17dc-df0c-4229-a267-3498fa2218fd",
      "subject": {
        "reference": "Patient/af3aaf7a-14a3-4887-8c07-b7ad2d68065d"
      },
      "valueCodeableConcept": {
        "coding": [ {
          "system": "2.16.840.1.113883.6.96",
          "code": "398447004",
          "display": "Severe acute respiratory syndrome (disorder)"
        } ]
      }
    }
  }, {
    "fullUrl": "37a2586c-4e4a-46bf-9c9e-d4207d3f9ff2",
    "resource": {
      "resourceType": "Observation",
      "id": "37a2586c-4e4a-46bf-9c9e-d4207d3f9ff2",
      "subject": {
        "reference": "Patient/af3aaf7a-14a3-4887-8c07-b7ad2d68065d"
      },
      "valueCodeableConcept": {
        "coding": [ {
          "system": "2.16.840.1.113883.6.96",
          "code": "128302006",
          "display": "Chronic hepatitis C (disorder)"
        } ]
      }
    }
  }, {
    "fullUrl": "2edf01c6-b2b4-4d30-9112-ed4bb0243611",
    "resource": {
      "resourceType": "Observation",
      "id": "2edf01c6-b2b4-4d30-9112-ed4bb0243611",
      "subject": {
        "reference": "Patient/af3aaf7a-14a3-4887-8c07-b7ad2d68065d"
      },
      "valueCodeableConcept": {
        "coding": [ {
          "system": "2.16.840.1.113883.6.96",
          "code": "105629000",
          "display": "Chlamydial infection (disorder)"
        } ]
      }
    }
  }, {
    "fullUrl": "ed33a7cc-4933-4633-81ad-d365ba4a0ef4",
    "resource": {
      "resourceType": "Observation",
      "id": "ed33a7cc-4933-4633-81ad-d365ba4a0ef4",
      "subject": {
        "reference": "Patient/af3aaf7a-14a3-4887-8c07-b7ad2d68065d"
      },
      "valueCodeableConcept": {
        "coding": [ {
          "system": "2.16.840.1.113883.6.96",
          "code": "79128009",
          "display": "Salmonella Paratyphi A (organism)"
        } ]
      }
    }
  }, {
    "fullUrl": "498efd59-bf59-42fb-ac74-e851c6194d18",
    "resource": {
      "resourceType": "Observation",
      "id": "498efd59-bf59-42fb-ac74-e851c6194d18",
      "subject": {
        "reference": "Patient/af3aaf7a-14a3-4887-8c07-b7ad2d68065d"
      },
      "valueCodeableConcept": {
        "coding": [ {
          "system": "2.16.840.1.113883.6.96",
          "code": "186747009",
          "display": "Coronavirus infection (disorder)"
        } ]
      }
    }
  }, {
    "fullUrl": "8d411eaf-7859-4fab-b55b-4f1fbf13c197",
    "resource": {
      "resourceType": "Observation",
      "id": "8d411eaf-7859-4fab-b55b-4f1fbf13c197",
      "subject": {
        "reference": "Patient/af3aaf7a-14a3-4887-8c07-b7ad2d68065d"
      },
      "valueCodeableConcept": {
        "coding": [ {
          "system": "2.16.840.1.113883.6.96",
          "code": "359761005",
          "display": "Disease caused by Hantavirus (disorder)"
        } ]
      }
    }
  }, {
    "fullUrl": "e224cae1-de8f-4577-b6af-ae06947254b5",
    "resource": {
      "resourceType": "Observation",
      "id": "e224cae1-de8f-4577-b6af-ae06947254b5",
      "subject": {
        "reference": "Patient/af3aaf7a-14a3-4887-8c07-b7ad2d68065d"
      },
      "valueCodeableConcept": {
        "coding": [ {
          "system": "2.16.840.1.113883.6.96",
          "code": "266143009",
          "display": "Chancroid (disorder)"
        } ]
      }
    }
  }, {
    "fullUrl": "a1ed7114-2723-4ea0-8250-ca859348f820",
    "resource": {
      "resourceType": "Observation",
      "id": "a1ed7114-2723-4ea0-8250-ca859348f820",
      "subject": {
        "reference": "Patient/af3aaf7a-14a3-4887-8c07-b7ad2d68065d"
      },
      "valueCodeableConcept": {
        "coding": [ {
          "system": "2.16.840.1.113883.6.96",
          "code": "242253008",
          "display": "Overdose of opiate (disorder)"
        } ]
      }
    }
  }, {
    "fullUrl": "908e0d13-3666-43ff-90a1-69adc460277c",
    "resource": {
      "resourceType": "Observation",
      "id": "908e0d13-3666-43ff-90a1-69adc460277c",
      "subject": {
        "reference": "Patient/af3aaf7a-14a3-4887-8c07-b7ad2d68065d"
      },
      "valueCodeableConcept": {
        "coding": [ {
          "system": "2.16.840.1.113883.6.96",
          "code": "36989005",
          "display": "Mumps (disorder)"
        } ]
      }
    }
  }, {
    "fullUrl": "1865e429-2238-48e8-a5d1-f81545543739",
    "resource": {
      "resourceType": "Observation",
      "id": "1865e429-2238-48e8-a5d1-f81545543739",
      "subject": {
        "reference": "Patient/af3aaf7a-14a3-4887-8c07-b7ad2d68065d"
      },
      "valueCodeableConcept": {
        "coding": [ {
          "system": "2.16.840.1.113883.6.96",
          "code": "88488004",
          "display": "Lead (substance)"
        } ]
      }
    }
  }, {
    "fullUrl": "4373c35d-b525-4db5-931a-b92ec18b36a0",
    "resource": {
      "resourceType": "Observation",
      "id": "4373c35d-b525-4db5-931a-b92ec18b36a0",
      "subject": {
        "reference": "Patient/af3aaf7a-14a3-4887-8c07-b7ad2d68065d"
      },
      "valueCodeableConcept": {
        "coding": [ {
          "system": "2.16.840.1.113883.6.96",
          "code": "1857005",
          "display": "Congenital rubella syndrome (disorder)"
        } ]
      }
    }
  }, {
    "fullUrl": "34446bf4-abcc-4b88-9263-464e8f35af91",
    "resource": {
      "resourceType": "Observation",
      "id": "34446bf4-abcc-4b88-9263-464e8f35af91",
      "subject": {
        "reference": "Patient/af3aaf7a-14a3-4887-8c07-b7ad2d68065d"
      },
      "valueCodeableConcept": {
        "coding": [ {
          "system": "2.16.840.1.113883.6.96",
          "code": "240523007",
          "display": "Viral hemorrhagic fever (disorder)"
        } ]
      }
    }
  }, {
    "fullUrl": "8ae881c4-764e-442e-9396-c5f3e04ac4a1",
    "resource": {
      "resourceType": "Observation",
      "id": "8ae881c4-764e-442e-9396-c5f3e04ac4a1",
      "subject": {
        "reference": "Patient/af3aaf7a-14a3-4887-8c07-b7ad2d68065d"
      },
      "valueCodeableConcept": {
        "coding": [ {
          "system": "2.16.840.1.113883.6.96",
          "code": "27836007",
          "display": "Pertussis (disorder)"
        } ]
      }
    }
  }, {
    "fullUrl": "da365b9d-699e-4ace-b9e8-20c4e822140f",
    "resource": {
      "resourceType": "Observation",
      "id": "da365b9d-699e-4ace-b9e8-20c4e822140f",
      "subject": {
        "reference": "Patient/af3aaf7a-14a3-4887-8c07-b7ad2d68065d"
      },
      "valueCodeableConcept": {
        "coding": [ {
          "system": "2.16.840.1.113883.6.96",
          "code": "3928002",
          "display": "Zika virus disease (disorder)"
        } ]
      }
    }
  }, {
    "fullUrl": "44292254-1f4f-4794-9f6f-8a5f09a36c7d",
    "resource": {
      "resourceType": "Observation",
      "id": "44292254-1f4f-4794-9f6f-8a5f09a36c7d",
      "subject": {
        "reference": "Patient/af3aaf7a-14a3-4887-8c07-b7ad2d68065d"
      },
      "valueCodeableConcept": {
        "coding": [ {
          "system": "2.16.840.1.113883.6.96",
          "code": "651000146102",
          "display": "Middle East respiratory syndrome (disorder)"
        } ]
      }
    }
  }, {
    "fullUrl": "2e12fe30-1c5c-492e-9ae2-149205097458",
    "resource": {
      "resourceType": "Observation",
      "id": "2e12fe30-1c5c-492e-9ae2-149205097458",
      "subject": {
        "reference": "Patient/af3aaf7a-14a3-4887-8c07-b7ad2d68065d"
      },
      "valueCodeableConcept": {
        "coding": [ {
          "system": "2.16.840.1.113883.6.96",
          "code": "15628003",
          "display": "Gonorrhea (disorder)"
        } ]
      }
    }
  }, {
    "fullUrl": "63807e2d-ae09-4530-bcc6-68116100c066",
    "resource": {
      "resourceType": "Observation",
      "id": "63807e2d-ae09-4530-bcc6-68116100c066",
      "subject": {
        "reference": "Patient/af3aaf7a-14a3-4887-8c07-b7ad2d68065d"
      },
      "valueCodeableConcept": {
        "coding": [ {
          "system": "2.16.840.1.113883.6.96",
          "code": "56717001",
          "display": "Tuberculosis (disorder)"
        } ]
      }
    }
  }, {
    "fullUrl": "a26265cc-63b5-405d-a376-5e5e4f1c8012",
    "resource": {
      "resourceType": "Observation",
      "id": "a26265cc-63b5-405d-a376-5e5e4f1c8012",
      "subject": {
        "reference": "Patient/af3aaf7a-14a3-4887-8c07-b7ad2d68065d"
      },
      "valueCodeableConcept": {
        "coding": [ {
          "system": "2.16.840.1.113883.6.96",
          "code": "5595000",
          "display": "Salmonella Typhi (organism)"
        } ]
      }
    }
  }, {
    "fullUrl": "30db9d99-d6f2-4a6b-9c74-3cb059a7dd30",
    "resource": {
      "resourceType": "Condition",
      "id": "30db9d99-d6f2-4a6b-9c74-3cb059a7dd30",
      "code": {
        "coding": [ {
          "system": "2.16.840.1.113883.6.96",
          "code": "240589008",
          "display": "Chlamydia trachomatis infection (disorder)"
        } ]
      },
      "subject": {
        "reference": "Patient/af3aaf7a-14a3-4887-8c07-b7ad2d68065d"
      }
    }
  } ]
}