{
  "resourceType": "Bundle",
  "id": "737be3bc-1bd3-4958-b566-1d24d9733741",
  "type": "collection",
  "entry": [ {
    "fullUrl": "00ca07cc-05ad-4144-b143-454546395225",
    "resource": {
      "resourceType": "Observation",
      "id": "00ca07cc-05ad-4144-b143-454546395225",
      "code": {
        "coding": [ {
          "system": "2.16.840.1.113883.3.1829.11.4.3.12",
          "code": "PH_DischargeDisposition_HL7_2x"
        } ]
      },
      "subject": {
        "reference": "Patient/51d0dfff-6c71-4b70-b76b-7f43907e4552"
      }
    }
  }, {
    "fullUrl": "192cd234-05c9-472f-9002-6453d61d6384",
    "resource": {
      "resourceType": "Encounter",
      "id": "192cd234-05c9-472f-9002-6453d61d6384",
      "reasonReference": [ {
        "reference": "Observation/00ca07cc-05ad-4144-b143-454546395225"
      } ]
    }
  }, {
    "fullUrl": "d10c7413-fb9a-4051-b471-e37a2b02276c",
    "resource": {
      "resourceType": "Condition",
      "id": "d10c7413-fb9a-4051-b471-e37a2b02276c",
      "code": {
        "coding": [ {
          "system": "2.16.840.1.113883.6.90",
          "code": "Z11.3",
          "display": "Encounter for screening for infections with a predominantly sexual mode of transmission"
        } ]
      },
      "subject": {
        "reference": "Patient/51d0dfff-6c71-4b70-b76b-7f43907e4552"
      }
    }
  }, {
    "fullUrl": "53145089-15fd-4ff5-8a3c-8bc15ade8f1d",
    "resource": {
      "resourceType": "Encounter",
      "id": "53145089-15fd-4ff5-8a3c-8bc15ade8f1d",
      "reasonReference": [ {
        "reference": "Condition/d10c7413-fb9a-4051-b471-e37a2b02276c"
      } ]
    }
  }, {
    "fullUrl": "02719aec-6338-465e-b6bb-40c5ec435d27",
    "resource": {
      "resourceType": "ServiceRequest",
      "id": "02719aec-6338-465e-b6bb-40c5ec435d27",
      "code": {
        "coding": [ {
          "system": "2.16.840.1.113883.6.1",
          "code": "57021-8",
          "display": "CBC W Auto Differential panel in Blood"
        } ]
      },
      "subject": {
        "reference": "Patient/51d0dfff-6c71-4b70-b76b-7f43907e4552"
      }
    }
  }, {
    "fullUrl": "6e84abd0-3788-4f43-af2b-eebd13353d45",
    "resource": {
      "resourceType": "ServiceRequest",
      "id": "6e84abd0-3788-4f43-af2b-eebd13353d45",
      "code": {
        "coding": [ {
          "system": "2.16.840.1.113883.6.1",
          "code": "45074-2",
          "display": "Chlamydia trachomatis+Neisseria gonorrhoeae rRNA [Presence] in Urine by DNA probe"
        } ]
      },
      "subject": {
        "reference": "Patient/51d0dfff-6c71-4b70-b76b-7f43907e4552"
      }
    }
  }, {
    "fullUrl": "5edec44f-3e6e-4c11-a900-19a6ebdbae2b",
    "resource": {
      "resourceType": "Observation",
      "id": "5edec44f-3e6e-4c11-a900-19a6ebdbae2b",
      "code": {
        "coding": [ {
          "system": "2.16.840.1.113883.6.96",
          "code": "364703007",
          "display": "Employment detail"
        } ]
      },
      "subject": {
        "reference": "Patient/51d0dfff-6c71-4b70-b76b-7f43907e4552"
      }
    }
  }, {
    "fullUrl": "d979be70-6525-4c6a-ab43-84c26081fde8",
    "resource": {
      "resourceType": "Observation",
      "id": "d979be70-6525-4c6a-ab43-84c26081fde8",
      "subject": {
        "reference": "Patient/51d0dfff-6c71-4b70-b76b-7f43907e4552"
      },
      "valueCodeableConcept": {
        "coding": [ {
          "system": "2.16.840.1.113883.6.96",
          "code": "61462000",
          "display": "Malaria (disorder)"
        } ]
      }
    }
  }, {
    "fullUrl": "4309ed7f-4d5c-473b-9efd-0f5ae1ce01a9",
    "resource": {
      "resourceType": "Observation",
      "id": "4309ed7f-4d5c-473b-9efd-0f5ae1ce01a9",
      "subject": {
        "reference": "Patient/51d0dfff-6c71-4b70-b76b-7f43907e4552"
      },
      "valueCodeableConcept": {
        "coding": [ {
          "system": "2.16.840.1.113883.6.96",
          "code": "406583002",
          "display": "Invasive Haemophilus influenzae disease (disorder)"
        } ]
      }
    }
  }, {
    "fullUrl": "75b0f2bc-c155-47da-9d67-2b56751eb40d",
    "resource": {
      "resourceType": "Observation",
      "id": "75b0f2bc-c155-47da-9d67-2b56751eb40d",
      "subject": {
        "reference": "Patient/51d0dfff-6c71-4b70-b76b-7f43907e4552"
      },
      "valueCodeableConcept": {
        "coding": [ {
          "system": "2.16.840.1.113883.6.96",
          "code": "404681006",
          "display": "Infection caused by vancomycin resistant Staphylococcus aureus (disorder)"
        } ]
      }
    }
  }, {
    "fullUrl": "667befe5-8120-4a9c-ba7e-a78df1dd636c",
    "resource": {
      "resourceType": "Observation",
      "id": "667befe5-8120-4a9c-ba7e-a78df1dd636c",
      "subject": {
        "reference": "Patient/51d0dfff-6c71-4b70-b76b-7f43907e4552"
      },
      "valueCodeableConcept": {
        "coding": [ {
          "system": "2.16.840.1.113883.6.96",
          "code": "734351004",
          "display": "Carbapenemase-producing Enterobacteriaceae (organism)"
        } ]
      }
    }
  }, {
    "fullUrl": "372688e9-8c25-4d56-a894-45da2f47db3e",
    "resource": {
      "resourceType": "Observation",
      "id": "372688e9-8c25-4d56-a894-45da2f47db3e",
      "subject": {
        "reference": "Patient/51d0dfff-6c71-4b70-b76b-7f43907e4552"
      },
      "valueCodeableConcept": {
        "coding": [ {
          "system": "2.16.840.1.113883.6.96",
          "code": "14189004",
          "display": "Measles (disorder)"
        } ]
      }
    }
  }, {
    "fullUrl": "5d67c4ca-851d-4301-83e8-2d33ab77b2da",
    "resource": {
      "resourceType": "Observation",
      "id": "5d67c4ca-851d-4301-83e8-2d33ab77b2da",
      "subject": {
        "reference": "Patient/51d0dfff-6c71-4b70-b76b-7f43907e4552"
      },
      "valueCodeableConcept": {
        "coding": [ {
          "system": "2.16.840.1.113883.6.96",
          "code": "406617004",
          "display": "Invasive Streptococcus pneumoniae disease (disorder)"
        } ]
      }
    }
  }, {
    "fullUrl": "86d5565c-8df8-48ff-a018-8030942a49d5",
    "resource": {
      "resourceType": "Observation",
      "id": "86d5565c-8df8-48ff-a018-8030942a49d5",
      "subject": {
        "reference": "Patient/51d0dfff-6c71-4b70-b76b-7f43907e4552"
      },
      "valueCodeableConcept": {
        "coding": [ {
          "system": "2.16.840.1.113883.6.96",
          "code": "23511006",
          "display": "Meningococcal infectious disease (disorder)"
        } ]
      }
    }
  }, {
    "fullUrl": "675be642-abbb-42b2-9e8e-a01207c28deb",
    "resource": {
      "resourceType": "Observation",
      "id": "675be642-abbb-42b2-9e8e-a01207c28deb",
      "subject": {
        "reference": "Patient/51d0dfff-6c71-4b70-b76b-7f43907e4552"
      },
      "valueCodeableConcept": {
        "coding": [ {
          "system": "2.16.840.1.113883.6.96",
          "code": "302231008",
          "display": "Salmonella infection (disorder)"
        } ]
      }
    }
  }, {
    "fullUrl": "91806995-6925-4128-9db1-99b360d7708c",
    "resource": {
      "resourceType": "Observation",
      "id": "91806995-6925-4128-9db1-99b360d7708c",
      "subject": {
        "reference": "Patient/51d0dfff-6c71-4b70-b76b-7f43907e4552"
      },
      "valueCodeableConcept": {
        "coding": [ {
          "system": "2.16.840.1.113883.6.96",
          "code": "17383000",
          "display": "Toxic effect of carbon monoxide (disorder)"
        } ]
      }
    }
  }, {
    "fullUrl": "fccdb203-6c81-4f4c-9939-af802322996a",
    "resource": {
      "resourceType": "Observation",
      "id": "fccdb203-6c81-4f4c-9939-af802322996a",
      "subject": {
        "reference": "Patient/51d0dfff-6c71-4b70-b76b-7f43907e4552"
      },
      "valueCodeableConcept": {
        "coding": [ {
          "system": "2.16.840.1.113883.6.96",
          "code": "398447004",
          "display": "Severe acute respiratory syndrome (disorder)"
        } ]
      }
    }
  }, {
    "fullUrl": "b8f43cd1-6101-45e5-a20e-5ae081971594",
    "resource": {
      "resourceType": "Observation",
      "id": "b8f43cd1-6101-45e5-a20e-5ae081971594",
      "subject": {
        "reference": "Patient/51d0dfff-6c71-4b70-b76b-7f43907e4552"
      },
      "valueCodeableConcept": {
        "coding": [ {
          "system": "2.16.840.1.113883.6.96",
          "code": "128302006",
          "display": "Chronic hepatitis C (disorder)"
        } ]
      }
    }
  }, {
    "fullUrl": "47a384a5-069d-4bf8-901e-939250f604c7",
    "resource": {
      "resourceType": "Observation",
      "id": "47a384a5-069d-4bf8-901e-939250f604c7",
      "subject": {
        "reference": "Patient/51d0dfff-6c71-4b70-b76b-7f43907e4552"
      },
      "valueCodeableConcept": {
        "coding": [ {
          "system": "2.16.840.1.113883.6.96",
          "code": "105629000",
          "display": "Chlamydial infection (disorder)"
        } ]
      }
    }
  }, {
    "fullUrl": "1cb700d0-3890-4b13-90cd-8ab3c44fe59e",
    "resource": {
      "resourceType": "Observation",
      "id": "1cb700d0-3890-4b13-90cd-8ab3c44fe59e",
      "subject": {
        "reference": "Patient/51d0dfff-6c71-4b70-b76b-7f43907e4552"
      },
      "valueCodeableConcept": {
        "coding": [ {
          "system": "2.16.840.1.113883.6.96",
          "code": "79128009",
          "display": "Salmonella Paratyphi A (organism)"
        } ]
      }
    }
  }, {
    "fullUrl": "72095873-a88d-4ab9-b802-45ca6f8175cc",
    "resource": {
      "resourceType": "Observation",
      "id": "72095873-a88d-4ab9-b802-45ca6f8175cc",
      "subject": {
        "reference": "Patient/51d0dfff-6c71-4b70-b76b-7f43907e4552"
      },
      "valueCodeableConcept": {
        "coding": [ {
          "system": "2.16.840.1.113883.6.96",
          "code": "186747009",
          "display": "Coronavirus infection (disorder)"
        } ]
      }
    }
  }, {
    "fullUrl": "1d73b34c-300c-4f40-af31-36beaa6c5cb6",
    "resource": {
      "resourceType": "Observation",
      "id": "1d73b34c-300c-4f40-af31-36beaa6c5cb6",
      "subject": {
        "reference": "Patient/51d0dfff-6c71-4b70-b76b-7f43907e4552"
      },
      "valueCodeableConcept": {
        "coding": [ {
          "system": "2.16.840.1.113883.6.96",
          "code": "359761005",
          "display": "Disease caused by Hantavirus (disorder)"
        } ]
      }
    }
  }, {
    "fullUrl": "868797cb-11be-4015-998f-91024aebbb1a",
    "resource": {
      "resourceType": "Observation",
      "id": "868797cb-11be-4015-998f-91024aebbb1a",
      "subject": {
        "reference": "Patient/51d0dfff-6c71-4b70-b76b-7f43907e4552"
      },
      "valueCodeableConcept": {
        "coding": [ {
          "system": "2.16.840.1.113883.6.96",
          "code": "266143009",
          "display": "Chancroid (disorder)"
        } ]
      }
    }
  }, {
    "fullUrl": "565ba3ba-672f-49b5-a240-cec9a2a49028",
    "resource": {
      "resourceType": "Observation",
      "id": "565ba3ba-672f-49b5-a240-cec9a2a49028",
      "subject": {
        "reference": "Patient/51d0dfff-6c71-4b70-b76b-7f43907e4552"
      },
      "valueCodeableConcept": {
        "coding": [ {
          "system": "2.16.840.1.113883.6.96",
          "code": "242253008",
          "display": "Overdose of opiate (disorder)"
        } ]
      }
    }
  }, {
    "fullUrl": "2c706817-3263-457f-89ee-c138919c7d17",
    "resource": {
      "resourceType": "Observation",
      "id": "2c706817-3263-457f-89ee-c138919c7d17",
      "subject": {
        "reference": "Patient/51d0dfff-6c71-4b70-b76b-7f43907e4552"
      },
      "valueCodeableConcept": {
        "coding": [ {
          "system": "2.16.840.1.113883.6.96",
          "code": "36989005",
          "display": "Mumps (disorder)"
        } ]
      }
    }
  }, {
    "fullUrl": "3eda680d-bfb3-4ce5-8ca0-608fcfa16e5f",
    "resource": {
      "resourceType": "Observation",
      "id": "3eda680d-bfb3-4ce5-8ca0-608fcfa16e5f",
      "subject": {
        "reference": "Patient/51d0dfff-6c71-4b70-b76b-7f43907e4552"
      },
      "valueCodeableConcept": {
        "coding": [ {
          "system": "2.16.840.1.113883.6.96",
          "code": "88488004",
          "display": "Lead (substance)"
        } ]
      }
    }
  }, {
    "fullUrl": "f4662177-09ce-45a9-9a63-1693d282d336",
    "resource": {
      "resourceType": "Observation",
      "id": "f4662177-09ce-45a9-9a63-1693d282d336",
      "subject": {
        "reference": "Patient/51d0dfff-6c71-4b70-b76b-7f43907e4552"
      },
      "valueCodeableConcept": {
        "coding": [ {
          "system": "2.16.840.1.113883.6.96",
          "code": "1857005",
          "display": "Congenital rubella syndrome (disorder)"
        } ]
      }
    }
  }, {
    "fullUrl": "d8ea93a0-ca6c-4951-b9bb-f00f06981fa3",
    "resource": {
      "resourceType": "Observation",
      "id": "d8ea93a0-ca6c-4951-b9bb-f00f06981fa3",
      "subject": {
        "reference": "Patient/51d0dfff-6c71-4b70-b76b-7f43907e4552"
      },
      "valueCodeableConcept": {
        "coding": [ {
          "system": "2.16.840.1.113883.6.96",
          "code": "240523007",
          "display": "Viral hemorrhagic fever (disorder)"
        } ]
      }
    }
  }, {
    "fullUrl": "5ac44692-1272-4d92-91e2-db237bd0b6d5",
    "resource": {
      "resourceType": "Observation",
      "id": "5ac44692-1272-4d92-91e2-db237bd0b6d5",
      "subject": {
        "reference": "Patient/51d0dfff-6c71-4b70-b76b-7f43907e4552"
      },
      "valueCodeableConcept": {
        "coding": [ {
          "system": "2.16.840.1.113883.6.96",
          "code": "27836007",
          "display": "Pertussis (disorder)"
        } ]
      }
    }
  }, {
    "fullUrl": "5f39bd0e-1300-4349-ae68-539cca42e994",
    "resource": {
      "resourceType": "Observation",
      "id": "5f39bd0e-1300-4349-ae68-539cca42e994",
      "subject": {
        "reference": "Patient/51d0dfff-6c71-4b70-b76b-7f43907e4552"
      },
      "valueCodeableConcept": {
        "coding": [ {
          "system": "2.16.840.1.113883.6.96",
          "code": "3928002",
          "display": "Zika virus disease (disorder)"
        } ]
      }
    }
  }, {
    "fullUrl": "a71390a6-fddf-431f-9c4c-eee071b583b9",
    "resource": {
      "resourceType": "Observation",
      "id": "a71390a6-fddf-431f-9c4c-eee071b583b9",
      "subject": {
        "reference": "Patient/51d0dfff-6c71-4b70-b76b-7f43907e4552"
      },
      "valueCodeableConcept": {
        "coding": [ {
          "system": "2.16.840.1.113883.6.96",
          "code": "651000146102",
          "display": "Middle East respiratory syndrome (disorder)"
        } ]
      }
    }
  }, {
    "fullUrl": "9a4d5b12-95b9-421f-8011-fc3159f9be58",
    "resource": {
      "resourceType": "Observation",
      "id": "9a4d5b12-95b9-421f-8011-fc3159f9be58",
      "subject": {
        "reference": "Patient/51d0dfff-6c71-4b70-b76b-7f43907e4552"
      },
      "valueCodeableConcept": {
        "coding": [ {
          "system": "2.16.840.1.113883.6.96",
          "code": "15628003",
          "display": "Gonorrhea (disorder)"
        } ]
      }
    }
  }, {
    "fullUrl": "06a3c8bc-267a-47dd-83e7-b101f6dfed7a",
    "resource": {
      "resourceType": "Observation",
      "id": "06a3c8bc-267a-47dd-83e7-b101f6dfed7a",
      "subject": {
        "reference": "Patient/51d0dfff-6c71-4b70-b76b-7f43907e4552"
      },
      "valueCodeableConcept": {
        "coding": [ {
          "system": "2.16.840.1.113883.6.96",
          "code": "56717001",
          "display": "Tuberculosis (disorder)"
        } ]
      }
    }
  }, {
    "fullUrl": "4b625f39-242e-49e7-927f-18ae56a7a92d",
    "resource": {
      "resourceType": "Observation",
      "id": "4b625f39-242e-49e7-927f-18ae56a7a92d",
      "subject": {
        "reference": "Patient/51d0dfff-6c71-4b70-b76b-7f43907e4552"
      },
      "valueCodeableConcept": {
        "coding": [ {
          "system": "2.16.840.1.113883.6.96",
          "code": "5595000",
          "display": "Salmonella Typhi (organism)"
        } ]
      }
    }
  }, {
    "fullUrl": "d726c6b1-01b0-491b-a1f7-0fd1be40a48d",
    "resource": {
      "resourceType": "Condition",
      "id": "d726c6b1-01b0-491b-a1f7-0fd1be40a48d",
      "code": {
        "coding": [ {
          "system": "2.16.840.1.113883.6.96",
          "code": "240589008",
          "display": "Chlamydia trachomatis infection (disorder)"
        } ]
      },
      "subject": {
        "reference": "Patient/51d0dfff-6c71-4b70-b76b-7f43907e4552"
      }
    }
  } ]
}