{
  "resourceType": "Bundle",
  "id": "06aefc81-691c-4c70-a51e-cadc966425fc",
  "type": "collection",
  "entry": [ {
    "fullUrl": "20f21f0d-87fc-427a-874b-840c70ad22e8",
    "resource": {
      "resourceType": "Observation",
      "id": "20f21f0d-87fc-427a-874b-840c70ad22e8",
      "code": {
        "coding": [ {
          "system": "2.16.840.1.113883.3.1829.11.4.3.12",
          "code": "PH_DischargeDisposition_HL7_2x"
        } ]
      },
      "subject": {
        "reference": "Patient/6a13d34a-7c06-4772-a944-45df920dda8e"
      }
    }
  }, {
    "fullUrl": "b9c38b35-69c6-42f0-a830-ae139addf56c",
    "resource": {
      "resourceType": "Encounter",
      "id": "b9c38b35-69c6-42f0-a830-ae139addf56c",
      "reasonReference": [ {
        "reference": "Observation/20f21f0d-87fc-427a-874b-840c70ad22e8"
      } ]
    }
  }, {
    "fullUrl": "91a4d56f-7eaa-46da-962a-42cfd59900dd",
    "resource": {
      "resourceType": "Condition",
      "id": "91a4d56f-7eaa-46da-962a-42cfd59900dd",
      "code": {
        "coding": [ {
          "system": "2.16.840.1.113883.6.90",
          "code": "Z11.3",
          "display": "Encounter for screening for infections with a predominantly sexual mode of transmission"
        } ]
      },
      "subject": {
        "reference": "Patient/6a13d34a-7c06-4772-a944-45df920dda8e"
      }
    }
  }, {
    "fullUrl": "5a2d914b-1771-4405-b22c-acb0b3a67a81",
    "resource": {
      "resourceType": "Encounter",
      "id": "5a2d914b-1771-4405-b22c-acb0b3a67a81",
      "reasonReference": [ {
        "reference": "Condition/91a4d56f-7eaa-46da-962a-42cfd59900dd"
      } ]
    }
  }, {
    "fullUrl": "7a08da1f-1172-4665-a6fc-fa012e005c95",
    "resource": {
      "resourceType": "ServiceRequest",
      "id": "7a08da1f-1172-4665-a6fc-fa012e005c95",
      "code": {
        "coding": [ {
          "system": "2.16.840.1.113883.6.1",
          "code": "57021-8",
          "display": "CBC W Auto Differential panel in Blood"
        } ]
      },
      "subject": {
        "reference": "Patient/6a13d34a-7c06-4772-a944-45df920dda8e"
      }
    }
  }, {
    "fullUrl": "e7dd53d5-1956-49c0-ae93-e02652ffcc97",
    "resource": {
      "resourceType": "ServiceRequest",
      "id": "e7dd53d5-1956-49c0-ae93-e02652ffcc97",
      "code": {
        "coding": [ {
          "system": "2.16.840.1.113883.6.1",
          "code": "45074-2",
          "display": "Chlamydia trachomatis+Neisseria gonorrhoeae rRNA [Presence] in Urine by DNA probe"
        } ]
      },
      "subject": {
        "reference": "Patient/6a13d34a-7c06-4772-a944-45df920dda8e"
      }
    }
  }, {
    "fullUrl": "eb1ad071-71dd-4f17-b28f-087c795c92e4",
    "resource": {
      "resourceType": "Observation",
      "id": "eb1ad071-71dd-4f17-b28f-087c795c92e4",
      "code": {
        "coding": [ {
          "system": "2.16.840.1.113883.6.96",
          "code": "364703007",
          "display": "Employment detail"
        } ]
      },
      "subject": {
        "reference": "Patient/6a13d34a-7c06-4772-a944-45df920dda8e"
      }
    }
  }, {
    "fullUrl": "f8880454-2dad-4346-a267-75e297feffb9",
    "resource": {
      "resourceType": "Observation",
      "id": "f8880454-2dad-4346-a267-75e297feffb9",
      "subject": {
        "reference": "Patient/6a13d34a-7c06-4772-a944-45df920dda8e"
      },
      "valueCodeableConcept": {
        "coding": [ {
          "system": "2.16.840.1.113883.6.96",
          "code": "61462000",
          "display": "Malaria (disorder)"
        } ]
      }
    }
  }, {
    "fullUrl": "1b2d94ec-da38-413a-942e-07558c5d33ec",
    "resource": {
      "resourceType": "Observation",
      "id": "1b2d94ec-da38-413a-942e-07558c5d33ec",
      "subject": {
        "reference": "Patient/6a13d34a-7c06-4772-a944-45df920dda8e"
      },
      "valueCodeableConcept": {
        "coding": [ {
          "system": "2.16.840.1.113883.6.96",
          "code": "406583002",
          "display": "Invasive Haemophilus influenzae disease (disorder)"
        } ]
      }
    }
  }, {
    "fullUrl": "6b42054a-1bec-48a8-9572-f9af7ebe982a",
    "resource": {
      "resourceType": "Observation",
      "id": "6b42054a-1bec-48a8-9572-f9af7ebe982a",
      "subject": {
        "reference": "Patient/6a13d34a-7c06-4772-a944-45df920dda8e"
      },
      "valueCodeableConcept": {
        "coding": [ {
          "system": "2.16.840.1.113883.6.96",
          "code": "404681006",
          "display": "Infection caused by vancomycin resistant Staphylococcus aureus (disorder)"
        } ]
      }
    }
  }, {
    "fullUrl": "27f2a8d7-4d7b-4d33-ac68-fa8bb68ecd45",
    "resource": {
      "resourceType": "Observation",
      "id": "27f2a8d7-4d7b-4d33-ac68-fa8bb68ecd45",
      "subject": {
        "reference": "Patient/6a13d34a-7c06-4772-a944-45df920dda8e"
      },
      "valueCodeableConcept": {
        "coding": [ {
          "system": "2.16.840.1.113883.6.96",
          "code": "734351004",
          "display": "Carbapenemase-producing Enterobacteriaceae (organism)"
        } ]
      }
    }
  }, {
    "fullUrl": "8f2096e1-2837-419a-bf92-58ee9d10e326",
    "resource": {
      "resourceType": "Observation",
      "id": "8f2096e1-2837-419a-bf92-58ee9d10e326",
      "subject": {
        "reference": "Patient/6a13d34a-7c06-4772-a944-45df920dda8e"
      },
      "valueCodeableConcept": {
        "coding": [ {
          "system": "2.16.840.1.113883.6.96",
          "code": "14189004",
          "display": "Measles (disorder)"
        } ]
      }
    }
  }, {
    "fullUrl": "86de2053-8c77-4aa5-964c-ae2294e480a3",
    "resource": {
      "resourceType": "Observation",
      "id": "86de2053-8c77-4aa5-964c-ae2294e480a3",
      "subject": {
        "reference": "Patient/6a13d34a-7c06-4772-a944-45df920dda8e"
      },
      "valueCodeableConcept": {
        "coding": [ {
          "system": "2.16.840.1.113883.6.96",
          "code": "406617004",
          "display": "Invasive Streptococcus pneumoniae disease (disorder)"
        } ]
      }
    }
  }, {
    "fullUrl": "23e0cc27-9765-41e3-ad4d-0387a0de3ecf",
    "resource": {
      "resourceType": "Observation",
      "id": "23e0cc27-9765-41e3-ad4d-0387a0de3ecf",
      "subject": {
        "reference": "Patient/6a13d34a-7c06-4772-a944-45df920dda8e"
      },
      "valueCodeableConcept": {
        "coding": [ {
          "system": "2.16.840.1.113883.6.96",
          "code": "23511006",
          "display": "Meningococcal infectious disease (disorder)"
        } ]
      }
    }
  }, {
    "fullUrl": "d3b40382-dcce-4a9b-aa06-9786caaf1aa6",
    "resource": {
      "resourceType": "Observation",
      "id": "d3b40382-dcce-4a9b-aa06-9786caaf1aa6",
      "subject": {
        "reference": "Patient/6a13d34a-7c06-4772-a944-45df920dda8e"
      },
      "valueCodeableConcept": {
        "coding": [ {
          "system": "2.16.840.1.113883.6.96",
          "code": "302231008",
          "display": "Salmonella infection (disorder)"
        } ]
      }
    }
  }, {
    "fullUrl": "df20193d-62b7-4179-86ba-e4978eb9ecd4",
    "resource": {
      "resourceType": "Observation",
      "id": "df20193d-62b7-4179-86ba-e4978eb9ecd4",
      "subject": {
        "reference": "Patient/6a13d34a-7c06-4772-a944-45df920dda8e"
      },
      "valueCodeableConcept": {
        "coding": [ {
          "system": "2.16.840.1.113883.6.96",
          "code": "17383000",
          "display": "Toxic effect of carbon monoxide (disorder)"
        } ]
      }
    }
  }, {
    "fullUrl": "27b392f3-b659-43c5-8ef8-7e1a279a3648",
    "resource": {
      "resourceType": "Observation",
      "id": "27b392f3-b659-43c5-8ef8-7e1a279a3648",
      "subject": {
        "reference": "Patient/6a13d34a-7c06-4772-a944-45df920dda8e"
      },
      "valueCodeableConcept": {
        "coding": [ {
          "system": "2.16.840.1.113883.6.96",
          "code": "398447004",
          "display": "Severe acute respiratory syndrome (disorder)"
        } ]
      }
    }
  }, {
    "fullUrl": "ac4679ce-c9ef-4fde-8818-788d33d8c664",
    "resource": {
      "resourceType": "Observation",
      "id": "ac4679ce-c9ef-4fde-8818-788d33d8c664",
      "subject": {
        "reference": "Patient/6a13d34a-7c06-4772-a944-45df920dda8e"
      },
      "valueCodeableConcept": {
        "coding": [ {
          "system": "2.16.840.1.113883.6.96",
          "code": "128302006",
          "display": "Chronic hepatitis C (disorder)"
        } ]
      }
    }
  }, {
    "fullUrl": "90bdbbec-0054-4f68-bae0-f2fc08069ef6",
    "resource": {
      "resourceType": "Observation",
      "id": "90bdbbec-0054-4f68-bae0-f2fc08069ef6",
      "subject": {
        "reference": "Patient/6a13d34a-7c06-4772-a944-45df920dda8e"
      },
      "valueCodeableConcept": {
        "coding": [ {
          "system": "2.16.840.1.113883.6.96",
          "code": "105629000",
          "display": "Chlamydial infection (disorder)"
        } ]
      }
    }
  }, {
    "fullUrl": "728e56d7-7487-4c24-a82e-70a0f3140dfd",
    "resource": {
      "resourceType": "Observation",
      "id": "728e56d7-7487-4c24-a82e-70a0f3140dfd",
      "subject": {
        "reference": "Patient/6a13d34a-7c06-4772-a944-45df920dda8e"
      },
      "valueCodeableConcept": {
        "coding": [ {
          "system": "2.16.840.1.113883.6.96",
          "code": "79128009",
          "display": "Salmonella Paratyphi A (organism)"
        } ]
      }
    }
  }, {
    "fullUrl": "e1a6adca-c64d-4672-bac8-eac97535592c",
    "resource": {
      "resourceType": "Observation",
      "id": "e1a6adca-c64d-4672-bac8-eac97535592c",
      "subject": {
        "reference": "Patient/6a13d34a-7c06-4772-a944-45df920dda8e"
      },
      "valueCodeableConcept": {
        "coding": [ {
          "system": "2.16.840.1.113883.6.96",
          "code": "186747009",
          "display": "Coronavirus infection (disorder)"
        } ]
      }
    }
  }, {
    "fullUrl": "d83243f2-872a-4aba-97db-8eca8b78ad2a",
    "resource": {
      "resourceType": "Observation",
      "id": "d83243f2-872a-4aba-97db-8eca8b78ad2a",
      "subject": {
        "reference": "Patient/6a13d34a-7c06-4772-a944-45df920dda8e"
      },
      "valueCodeableConcept": {
        "coding": [ {
          "system": "2.16.840.1.113883.6.96",
          "code": "359761005",
          "display": "Disease caused by Hantavirus (disorder)"
        } ]
      }
    }
  }, {
    "fullUrl": "bc1cbb60-96ad-42cc-9136-1933bfdd84c5",
    "resource": {
      "resourceType": "Observation",
      "id": "bc1cbb60-96ad-42cc-9136-1933bfdd84c5",
      "subject": {
        "reference": "Patient/6a13d34a-7c06-4772-a944-45df920dda8e"
      },
      "valueCodeableConcept": {
        "coding": [ {
          "system": "2.16.840.1.113883.6.96",
          "code": "266143009",
          "display": "Chancroid (disorder)"
        } ]
      }
    }
  }, {
    "fullUrl": "a5ddfbeb-a1c4-4fa9-a377-56b78017c4ea",
    "resource": {
      "resourceType": "Observation",
      "id": "a5ddfbeb-a1c4-4fa9-a377-56b78017c4ea",
      "subject": {
        "reference": "Patient/6a13d34a-7c06-4772-a944-45df920dda8e"
      },
      "valueCodeableConcept": {
        "coding": [ {
          "system": "2.16.840.1.113883.6.96",
          "code": "242253008",
          "display": "Overdose of opiate (disorder)"
        } ]
      }
    }
  }, {
    "fullUrl": "dcc277c0-704b-4fa1-96a2-4b170905f511",
    "resource": {
      "resourceType": "Observation",
      "id": "dcc277c0-704b-4fa1-96a2-4b170905f511",
      "subject": {
        "reference": "Patient/6a13d34a-7c06-4772-a944-45df920dda8e"
      },
      "valueCodeableConcept": {
        "coding": [ {
          "system": "2.16.840.1.113883.6.96",
          "code": "36989005",
          "display": "Mumps (disorder)"
        } ]
      }
    }
  }, {
    "fullUrl": "cc14a8cb-a5c6-4fec-8c88-f04aa0912abb",
    "resource": {
      "resourceType": "Observation",
      "id": "cc14a8cb-a5c6-4fec-8c88-f04aa0912abb",
      "subject": {
        "reference": "Patient/6a13d34a-7c06-4772-a944-45df920dda8e"
      },
      "valueCodeableConcept": {
        "coding": [ {
          "system": "2.16.840.1.113883.6.96",
          "code": "88488004",
          "display": "Lead (substance)"
        } ]
      }
    }
  }, {
    "fullUrl": "f3543906-709b-447e-8c67-62c04ff4e81b",
    "resource": {
      "resourceType": "Observation",
      "id": "f3543906-709b-447e-8c67-62c04ff4e81b",
      "subject": {
        "reference": "Patient/6a13d34a-7c06-4772-a944-45df920dda8e"
      },
      "valueCodeableConcept": {
        "coding": [ {
          "system": "2.16.840.1.113883.6.96",
          "code": "1857005",
          "display": "Congenital rubella syndrome (disorder)"
        } ]
      }
    }
  }, {
    "fullUrl": "4c23cbfd-61d7-4027-b46f-ae419328e7a5",
    "resource": {
      "resourceType": "Observation",
      "id": "4c23cbfd-61d7-4027-b46f-ae419328e7a5",
      "subject": {
        "reference": "Patient/6a13d34a-7c06-4772-a944-45df920dda8e"
      },
      "valueCodeableConcept": {
        "coding": [ {
          "system": "2.16.840.1.113883.6.96",
          "code": "240523007",
          "display": "Viral hemorrhagic fever (disorder)"
        } ]
      }
    }
  }, {
    "fullUrl": "81c8ad4b-1bfc-4994-ab59-f4c1d12a621a",
    "resource": {
      "resourceType": "Observation",
      "id": "81c8ad4b-1bfc-4994-ab59-f4c1d12a621a",
      "subject": {
        "reference": "Patient/6a13d34a-7c06-4772-a944-45df920dda8e"
      },
      "valueCodeableConcept": {
        "coding": [ {
          "system": "2.16.840.1.113883.6.96",
          "code": "27836007",
          "display": "Pertussis (disorder)"
        } ]
      }
    }
  }, {
    "fullUrl": "52cb4b97-84a9-42d7-8a5b-e2f3ce618695",
    "resource": {
      "resourceType": "Observation",
      "id": "52cb4b97-84a9-42d7-8a5b-e2f3ce618695",
      "subject": {
        "reference": "Patient/6a13d34a-7c06-4772-a944-45df920dda8e"
      },
      "valueCodeableConcept": {
        "coding": [ {
          "system": "2.16.840.1.113883.6.96",
          "code": "3928002",
          "display": "Zika virus disease (disorder)"
        } ]
      }
    }
  }, {
    "fullUrl": "b2e4d893-8e4f-489c-a0fe-880d9e532be1",
    "resource": {
      "resourceType": "Observation",
      "id": "b2e4d893-8e4f-489c-a0fe-880d9e532be1",
      "subject": {
        "reference": "Patient/6a13d34a-7c06-4772-a944-45df920dda8e"
      },
      "valueCodeableConcept": {
        "coding": [ {
          "system": "2.16.840.1.113883.6.96",
          "code": "651000146102",
          "display": "Middle East respiratory syndrome (disorder)"
        } ]
      }
    }
  }, {
    "fullUrl": "51b9e809-d961-4724-b0b8-9de1ae51fe9e",
    "resource": {
      "resourceType": "Observation",
      "id": "51b9e809-d961-4724-b0b8-9de1ae51fe9e",
      "subject": {
        "reference": "Patient/6a13d34a-7c06-4772-a944-45df920dda8e"
      },
      "valueCodeableConcept": {
        "coding": [ {
          "system": "2.16.840.1.113883.6.96",
          "code": "15628003",
          "display": "Gonorrhea (disorder)"
        } ]
      }
    }
  }, {
    "fullUrl": "998bc6a9-bac1-44d8-8ae6-7937944481f8",
    "resource": {
      "resourceType": "Observation",
      "id": "998bc6a9-bac1-44d8-8ae6-7937944481f8",
      "subject": {
        "reference": "Patient/6a13d34a-7c06-4772-a944-45df920dda8e"
      },
      "valueCodeableConcept": {
        "coding": [ {
          "system": "2.16.840.1.113883.6.96",
          "code": "56717001",
          "display": "Tuberculosis (disorder)"
        } ]
      }
    }
  }, {
    "fullUrl": "1894dca7-ea1c-4eea-af0f-5c9e23d21c3b",
    "resource": {
      "resourceType": "Observation",
      "id": "1894dca7-ea1c-4eea-af0f-5c9e23d21c3b",
      "subject": {
        "reference": "Patient/6a13d34a-7c06-4772-a944-45df920dda8e"
      },
      "valueCodeableConcept": {
        "coding": [ {
          "system": "2.16.840.1.113883.6.96",
          "code": "5595000",
          "display": "Salmonella Typhi (organism)"
        } ]
      }
    }
  }, {
    "fullUrl": "039ce212-4d43-46d5-a9e3-4edea64fa44f",
    "resource": {
      "resourceType": "Condition",
      "id": "039ce212-4d43-46d5-a9e3-4edea64fa44f",
      "code": {
        "coding": [ {
          "system": "2.16.840.1.113883.6.96",
          "code": "240589008",
          "display": "Chlamydia trachomatis infection (disorder)"
        } ]
      },
      "subject": {
        "reference": "Patient/6a13d34a-7c06-4772-a944-45df920dda8e"
      }
    }
  } ]
}