{
  "resourceType": "Bundle",
  "id": "f89bdb38-c154-4876-bf62-7f95aefcf60b",
  "type": "collection",
  "entry": [ {
    "fullUrl": "b0e9401f-bec7-4d80-8896-f022662276e0",
    "resource": {
      "resourceType": "Observation",
      "id": "b0e9401f-bec7-4d80-8896-f022662276e0",
      "code": {
        "coding": [ {
          "system": "2.16.840.1.113883.3.1829.11.4.3.12",
          "code": "PH_DischargeDisposition_HL7_2x"
        } ]
      },
      "subject": {
        "reference": "Patient/a1f71159-5b96-4777-8988-4e56e2337fa8"
      }
    }
  }, {
    "fullUrl": "55983b4d-7399-424c-9eda-f7c7941d1213",
    "resource": {
      "resourceType": "Encounter",
      "id": "55983b4d-7399-424c-9eda-f7c7941d1213",
      "reasonReference": [ {
        "reference": "Observation/b0e9401f-bec7-4d80-8896-f022662276e0"
      } ]
    }
  }, {
    "fullUrl": "483f60d4-97fe-4a8d-a3a3-01fdcdd54503",
    "resource": {
      "resourceType": "Condition",
      "id": "483f60d4-97fe-4a8d-a3a3-01fdcdd54503",
      "code": {
        "coding": [ {
          "system": "2.16.840.1.113883.6.90",
          "code": "Z11.3",
          "display": "Encounter for screening for infections with a predominantly sexual mode of transmission"
        } ]
      },
      "subject": {
        "reference": "Patient/a1f71159-5b96-4777-8988-4e56e2337fa8"
      }
    }
  }, {
    "fullUrl": "38f37053-76f5-47a0-995b-512e940020ba",
    "resource": {
      "resourceType": "Encounter",
      "id": "38f37053-76f5-47a0-995b-512e940020ba",
      "reasonReference": [ {
        "reference": "Condition/483f60d4-97fe-4a8d-a3a3-01fdcdd54503"
      } ]
    }
  }, {
    "fullUrl": "be42f994-f36e-44db-9232-43be16b3fced",
    "resource": {
      "resourceType": "ServiceRequest",
      "id": "be42f994-f36e-44db-9232-43be16b3fced",
      "code": {
        "coding": [ {
          "system": "2.16.840.1.113883.6.1",
          "code": "57021-8",
          "display": "CBC W Auto Differential panel in Blood"
        } ]
      },
      "subject": {
        "reference": "Patient/a1f71159-5b96-4777-8988-4e56e2337fa8"
      }
    }
  }, {
    "fullUrl": "d4c992fc-0ea3-4865-abca-37d522a898b0",
    "resource": {
      "resourceType": "ServiceRequest",
      "id": "d4c992fc-0ea3-4865-abca-37d522a898b0",
      "code": {
        "coding": [ {
          "system": "2.16.840.1.113883.6.1",
          "code": "45074-2",
          "display": "Chlamydia trachomatis+Neisseria gonorrhoeae rRNA [Presence] in Urine by DNA probe"
        } ]
      },
      "subject": {
        "reference": "Patient/a1f71159-5b96-4777-8988-4e56e2337fa8"
      }
    }
  }, {
    "fullUrl": "f5487658-b845-430a-828b-bd1edb3803c5",
    "resource": {
      "resourceType": "Observation",
      "id": "f5487658-b845-430a-828b-bd1edb3803c5",
      "code": {
        "coding": [ {
          "system": "2.16.840.1.113883.6.96",
          "code": "364703007",
          "display": "Employment detail"
        } ]
      },
      "subject": {
        "reference": "Patient/a1f71159-5b96-4777-8988-4e56e2337fa8"
      }
    }
  }, {
    "fullUrl": "0bd5fca1-37ca-4183-9a3b-984e095e7b89",
    "resource": {
      "resourceType": "Observation",
      "id": "0bd5fca1-37ca-4183-9a3b-984e095e7b89",
      "subject": {
        "reference": "Patient/a1f71159-5b96-4777-8988-4e56e2337fa8"
      },
      "valueCodeableConcept": {
        "coding": [ {
          "system": "2.16.840.1.113883.6.96",
          "code": "61462000",
          "display": "Malaria (disorder)"
        } ]
      }
    }
  }, {
    "fullUrl": "52673bd9-469f-4cfd-8731-92591db0d4f1",
    "resource": {
      "resourceType": "Observation",
      "id": "52673bd9-469f-4cfd-8731-92591db0d4f1",
      "subject": {
        "reference": "Patient/a1f71159-5b96-4777-8988-4e56e2337fa8"
      },
      "valueCodeableConcept": {
        "coding": [ {
          "system": "2.16.840.1.113883.6.96",
          "code": "406583002",
          "display": "Invasive Haemophilus influenzae disease (disorder)"
        } ]
      }
    }
  }, {
    "fullUrl": "4a1521dc-b4bb-4f67-aca1-aba2717c0713",
    "resource": {
      "resourceType": "Observation",
      "id": "4a1521dc-b4bb-4f67-aca1-aba2717c0713",
      "subject": {
        "reference": "Patient/a1f71159-5b96-4777-8988-4e56e2337fa8"
      },
      "valueCodeableConcept": {
        "coding": [ {
          "system": "2.16.840.1.113883.6.96",
          "code": "404681006",
          "display": "Infection caused by vancomycin resistant Staphylococcus aureus (disorder)"
        } ]
      }
    }
  }, {
    "fullUrl": "a7b3cf86-dd05-46b8-9bb5-cdf0a18d6d34",
    "resource": {
      "resourceType": "Observation",
      "id": "a7b3cf86-dd05-46b8-9bb5-cdf0a18d6d34",
      "subject": {
        "reference": "Patient/a1f71159-5b96-4777-8988-4e56e2337fa8"
      },
      "valueCodeableConcept": {
        "coding": [ {
          "system": "2.16.840.1.113883.6.96",
          "code": "734351004",
          "display": "Carbapenemase-producing Enterobacteriaceae (organism)"
        } ]
      }
    }
  }, {
    "fullUrl": "6c0ff67f-06f6-4bff-9bcc-43e8165755c8",
    "resource": {
      "resourceType": "Observation",
      "id": "6c0ff67f-06f6-4bff-9bcc-43e8165755c8",
      "subject": {
        "reference": "Patient/a1f71159-5b96-4777-8988-4e56e2337fa8"
      },
      "valueCodeableConcept": {
        "coding": [ {
          "system": "2.16.840.1.113883.6.96",
          "code": "14189004",
          "display": "Measles (disorder)"
        } ]
      }
    }
  }, {
    "fullUrl": "8eb51037-4016-46d9-8852-acab88b27215",
    "resource": {
      "resourceType": "Observation",
      "id": "8eb51037-4016-46d9-8852-acab88b27215",
      "subject": {
        "reference": "Patient/a1f71159-5b96-4777-8988-4e56e2337fa8"
      },
      "valueCodeableConcept": {
        "coding": [ {
          "system": "2.16.840.1.113883.6.96",
          "code": "406617004",
          "display": "Invasive Streptococcus pneumoniae disease (disorder)"
        } ]
      }
    }
  }, {
    "fullUrl": "bfa88ad0-93c1-4472-8d7d-032040625e11",
    "resource": {
      "resourceType": "Observation",
      "id": "bfa88ad0-93c1-4472-8d7d-032040625e11",
      "subject": {
        "reference": "Patient/a1f71159-5b96-4777-8988-4e56e2337fa8"
      },
      "valueCodeableConcept": {
        "coding": [ {
          "system": "2.16.840.1.113883.6.96",
          "code": "23511006",
          "display": "Meningococcal infectious disease (disorder)"
        } ]
      }
    }
  }, {
    "fullUrl": "4ce5eaca-d8d1-4ade-9fc8-513579b75cd9",
    "resource": {
      "resourceType": "Observation",
      "id": "4ce5eaca-d8d1-4ade-9fc8-513579b75cd9",
      "subject": {
        "reference": "Patient/a1f71159-5b96-4777-8988-4e56e2337fa8"
      },
      "valueCodeableConcept": {
        "coding": [ {
          "system": "2.16.840.1.113883.6.96",
          "code": "302231008",
          "display": "Salmonella infection (disorder)"
        } ]
      }
    }
  }, {
    "fullUrl": "98e43494-3900-41cd-a680-2f3acf0d1534",
    "resource": {
      "resourceType": "Observation",
      "id": "98e43494-3900-41cd-a680-2f3acf0d1534",
      "subject": {
        "reference": "Patient/a1f71159-5b96-4777-8988-4e56e2337fa8"
      },
      "valueCodeableConcept": {
        "coding": [ {
          "system": "2.16.840.1.113883.6.96",
          "code": "17383000",
          "display": "Toxic effect of carbon monoxide (disorder)"
        } ]
      }
    }
  }, {
    "fullUrl": "4322b9e4-9be9-4ffb-991a-d14d77a9c08c",
    "resource": {
      "resourceType": "Observation",
      "id": "4322b9e4-9be9-4ffb-991a-d14d77a9c08c",
      "subject": {
        "reference": "Patient/a1f71159-5b96-4777-8988-4e56e2337fa8"
      },
      "valueCodeableConcept": {
        "coding": [ {
          "system": "2.16.840.1.113883.6.96",
          "code": "398447004",
          "display": "Severe acute respiratory syndrome (disorder)"
        } ]
      }
    }
  }, {
    "fullUrl": "55a81daf-bf58-4b10-893d-a9db12f5d51e",
    "resource": {
      "resourceType": "Observation",
      "id": "55a81daf-bf58-4b10-893d-a9db12f5d51e",
      "subject": {
        "reference": "Patient/a1f71159-5b96-4777-8988-4e56e2337fa8"
      },
      "valueCodeableConcept": {
        "coding": [ {
          "system": "2.16.840.1.113883.6.96",
          "code": "128302006",
          "display": "Chronic hepatitis C (disorder)"
        } ]
      }
    }
  }, {
    "fullUrl": "c03e7f36-a723-472a-b2f2-acbf9f3e61ba",
    "resource": {
      "resourceType": "Observation",
      "id": "c03e7f36-a723-472a-b2f2-acbf9f3e61ba",
      "subject": {
        "reference": "Patient/a1f71159-5b96-4777-8988-4e56e2337fa8"
      },
      "valueCodeableConcept": {
        "coding": [ {
          "system": "2.16.840.1.113883.6.96",
          "code": "105629000",
          "display": "Chlamydial infection (disorder)"
        } ]
      }
    }
  }, {
    "fullUrl": "1f3407ac-ba91-4f38-9381-ff6334dbce62",
    "resource": {
      "resourceType": "Observation",
      "id": "1f3407ac-ba91-4f38-9381-ff6334dbce62",
      "subject": {
        "reference": "Patient/a1f71159-5b96-4777-8988-4e56e2337fa8"
      },
      "valueCodeableConcept": {
        "coding": [ {
          "system": "2.16.840.1.113883.6.96",
          "code": "79128009",
          "display": "Salmonella Paratyphi A (organism)"
        } ]
      }
    }
  }, {
    "fullUrl": "668f2bd2-13d0-4884-9c24-565dbc563f41",
    "resource": {
      "resourceType": "Observation",
      "id": "668f2bd2-13d0-4884-9c24-565dbc563f41",
      "subject": {
        "reference": "Patient/a1f71159-5b96-4777-8988-4e56e2337fa8"
      },
      "valueCodeableConcept": {
        "coding": [ {
          "system": "2.16.840.1.113883.6.96",
          "code": "186747009",
          "display": "Coronavirus infection (disorder)"
        } ]
      }
    }
  }, {
    "fullUrl": "cbfb45e8-0c39-48ec-85a2-9f0e15f6199f",
    "resource": {
      "resourceType": "Observation",
      "id": "cbfb45e8-0c39-48ec-85a2-9f0e15f6199f",
      "subject": {
        "reference": "Patient/a1f71159-5b96-4777-8988-4e56e2337fa8"
      },
      "valueCodeableConcept": {
        "coding": [ {
          "system": "2.16.840.1.113883.6.96",
          "code": "359761005",
          "display": "Disease caused by Hantavirus (disorder)"
        } ]
      }
    }
  }, {
    "fullUrl": "4b1587eb-bb07-42c5-a90c-3413fdb21ba4",
    "resource": {
      "resourceType": "Observation",
      "id": "4b1587eb-bb07-42c5-a90c-3413fdb21ba4",
      "subject": {
        "reference": "Patient/a1f71159-5b96-4777-8988-4e56e2337fa8"
      },
      "valueCodeableConcept": {
        "coding": [ {
          "system": "2.16.840.1.113883.6.96",
          "code": "266143009",
          "display": "Chancroid (disorder)"
        } ]
      }
    }
  }, {
    "fullUrl": "ede5b293-faa6-4894-aea2-86269933770b",
    "resource": {
      "resourceType": "Observation",
      "id": "ede5b293-faa6-4894-aea2-86269933770b",
      "subject": {
        "reference": "Patient/a1f71159-5b96-4777-8988-4e56e2337fa8"
      },
      "valueCodeableConcept": {
        "coding": [ {
          "system": "2.16.840.1.113883.6.96",
          "code": "242253008",
          "display": "Overdose of opiate (disorder)"
        } ]
      }
    }
  }, {
    "fullUrl": "4f7133f6-14ba-4e51-8edb-861cf0f3ed2a",
    "resource": {
      "resourceType": "Observation",
      "id": "4f7133f6-14ba-4e51-8edb-861cf0f3ed2a",
      "subject": {
        "reference": "Patient/a1f71159-5b96-4777-8988-4e56e2337fa8"
      },
      "valueCodeableConcept": {
        "coding": [ {
          "system": "2.16.840.1.113883.6.96",
          "code": "36989005",
          "display": "Mumps (disorder)"
        } ]
      }
    }
  }, {
    "fullUrl": "fc3fc190-a3fa-475c-839c-99b01b90e91e",
    "resource": {
      "resourceType": "Observation",
      "id": "fc3fc190-a3fa-475c-839c-99b01b90e91e",
      "subject": {
        "reference": "Patient/a1f71159-5b96-4777-8988-4e56e2337fa8"
      },
      "valueCodeableConcept": {
        "coding": [ {
          "system": "2.16.840.1.113883.6.96",
          "code": "88488004",
          "display": "Lead (substance)"
        } ]
      }
    }
  }, {
    "fullUrl": "6b4a8815-e7af-470f-872f-de9c7fd60721",
    "resource": {
      "resourceType": "Observation",
      "id": "6b4a8815-e7af-470f-872f-de9c7fd60721",
      "subject": {
        "reference": "Patient/a1f71159-5b96-4777-8988-4e56e2337fa8"
      },
      "valueCodeableConcept": {
        "coding": [ {
          "system": "2.16.840.1.113883.6.96",
          "code": "1857005",
          "display": "Congenital rubella syndrome (disorder)"
        } ]
      }
    }
  }, {
    "fullUrl": "56756f0c-9445-4c30-86ab-7a86a91ce814",
    "resource": {
      "resourceType": "Observation",
      "id": "56756f0c-9445-4c30-86ab-7a86a91ce814",
      "subject": {
        "reference": "Patient/a1f71159-5b96-4777-8988-4e56e2337fa8"
      },
      "valueCodeableConcept": {
        "coding": [ {
          "system": "2.16.840.1.113883.6.96",
          "code": "240523007",
          "display": "Viral hemorrhagic fever (disorder)"
        } ]
      }
    }
  }, {
    "fullUrl": "9b127713-c579-4bbd-8845-1abc276b7b2e",
    "resource": {
      "resourceType": "Observation",
      "id": "9b127713-c579-4bbd-8845-1abc276b7b2e",
      "subject": {
        "reference": "Patient/a1f71159-5b96-4777-8988-4e56e2337fa8"
      },
      "valueCodeableConcept": {
        "coding": [ {
          "system": "2.16.840.1.113883.6.96",
          "code": "27836007",
          "display": "Pertussis (disorder)"
        } ]
      }
    }
  }, {
    "fullUrl": "560b3fa5-0283-459f-9c61-d8cdc2bf9e59",
    "resource": {
      "resourceType": "Observation",
      "id": "560b3fa5-0283-459f-9c61-d8cdc2bf9e59",
      "subject": {
        "reference": "Patient/a1f71159-5b96-4777-8988-4e56e2337fa8"
      },
      "valueCodeableConcept": {
        "coding": [ {
          "system": "2.16.840.1.113883.6.96",
          "code": "3928002",
          "display": "Zika virus disease (disorder)"
        } ]
      }
    }
  }, {
    "fullUrl": "2d8ff40e-f65b-4b5b-8685-bc2c753ca1e3",
    "resource": {
      "resourceType": "Observation",
      "id": "2d8ff40e-f65b-4b5b-8685-bc2c753ca1e3",
      "subject": {
        "reference": "Patient/a1f71159-5b96-4777-8988-4e56e2337fa8"
      },
      "valueCodeableConcept": {
        "coding": [ {
          "system": "2.16.840.1.113883.6.96",
          "code": "651000146102",
          "display": "Middle East respiratory syndrome (disorder)"
        } ]
      }
    }
  }, {
    "fullUrl": "95edc403-9397-411f-9f29-986681ad3f40",
    "resource": {
      "resourceType": "Observation",
      "id": "95edc403-9397-411f-9f29-986681ad3f40",
      "subject": {
        "reference": "Patient/a1f71159-5b96-4777-8988-4e56e2337fa8"
      },
      "valueCodeableConcept": {
        "coding": [ {
          "system": "2.16.840.1.113883.6.96",
          "code": "15628003",
          "display": "Gonorrhea (disorder)"
        } ]
      }
    }
  }, {
    "fullUrl": "15be9a22-90a9-4d05-b9ab-42fa52356d27",
    "resource": {
      "resourceType": "Observation",
      "id": "15be9a22-90a9-4d05-b9ab-42fa52356d27",
      "subject": {
        "reference": "Patient/a1f71159-5b96-4777-8988-4e56e2337fa8"
      },
      "valueCodeableConcept": {
        "coding": [ {
          "system": "2.16.840.1.113883.6.96",
          "code": "56717001",
          "display": "Tuberculosis (disorder)"
        } ]
      }
    }
  }, {
    "fullUrl": "b8ee480c-ede4-4c65-aecb-0f5d06eed29e",
    "resource": {
      "resourceType": "Observation",
      "id": "b8ee480c-ede4-4c65-aecb-0f5d06eed29e",
      "subject": {
        "reference": "Patient/a1f71159-5b96-4777-8988-4e56e2337fa8"
      },
      "valueCodeableConcept": {
        "coding": [ {
          "system": "2.16.840.1.113883.6.96",
          "code": "5595000",
          "display": "Salmonella Typhi (organism)"
        } ]
      }
    }
  }, {
    "fullUrl": "3f505f5c-f632-4f6b-95a4-c6cf96bbe837",
    "resource": {
      "resourceType": "Condition",
      "id": "3f505f5c-f632-4f6b-95a4-c6cf96bbe837",
      "code": {
        "coding": [ {
          "system": "2.16.840.1.113883.6.96",
          "code": "240589008",
          "display": "Chlamydia trachomatis infection (disorder)"
        } ]
      },
      "subject": {
        "reference": "Patient/a1f71159-5b96-4777-8988-4e56e2337fa8"
      }
    }
  } ]
}